stair.thisTrialN,stair.stepSize,stair.intensity,fixation.started,grating.started,key_resp.started,fixation.stopped,grating.stopped,corrAns,tilt,key_resp.corr,stair.response,key_resp.rt,participant,session,date,expName,psychopyVersion,frameRate
0,2,10,8.842401417,9.335091459,9.335091459,9.350741792,9.620971084,right,10,1,1,0.669067791,650183,1,2023-09-15_20h01.36.078,Tutorial1,2023.1.3,None
1,2,8,10.04923771,10.53872829,10.53872829,10.53872829,10.83407887,right,8,1,1,0.483821124,650183,1,2023-09-15_20h01.36.078,Tutorial1,2023.1.3,None
2,2,6,11.05954567,11.53410767,11.53410767,11.55445496,11.8217975,right,6,1,1,0.497344999,650183,1,2023-09-15_20h01.36.078,Tutorial1,2023.1.3,None
3,2,4,12.04303183,12.53412029,12.53412029,12.53818354,12.82090483,left,-4,1,1,0.55663529,650183,1,2023-09-15_20h01.36.078,Tutorial1,2023.1.3,None
4,2,2,13.1106785,13.60075521,13.60075521,13.60521787,13.88850675,right,2,1,1,0.585477707,650183,1,2023-09-15_20h01.36.078,Tutorial1,2023.1.3,None
5,1,1,14.20071775,14.68416262,14.68416262,14.68882479,14.97085917,left,-1,0,0,2.098347791,650183,1,2023-09-15_20h01.36.078,Tutorial1,2023.1.3,None
6,1,2,16.79402129,17.28412833,17.28412833,17.28846396,17.57136546,left,-2,1,1,0.685566249,650183,1,2023-09-15_20h01.36.078,Tutorial1,2023.1.3,None
7,1,2,17.98424692,18.47123187,18.47123187,18.47123187,18.767505,right,2,1,1,0.540142874,650183,1,2023-09-15_20h01.36.078,Tutorial1,2023.1.3,None
8,1,2,19.02675217,19.51752571,19.51752571,19.52191371,19.8045785,right,2,1,1,0.530557708,650183,1,2023-09-15_20h01.36.078,Tutorial1,2023.1.3,None
9,1,1,20.06012025,20.55089392,20.55089392,20.55508275,20.8376335,right,1,1,1,0.701465041,650183,1,2023-09-15_20h01.36.078,Tutorial1,2023.1.3,None
10,1,1,21.26764696,21.75087683,21.75087683,21.75531621,22.03758254,right,1,1,1,0.468847874,650183,1,2023-09-15_20h01.36.078,Tutorial1,2023.1.3,None
11,1,1,22.23428271,22.71761454,22.71761454,22.72199621,23.00449917,left,-1,1,1,0.614535416,650183,1,2023-09-15_20h01.36.078,Tutorial1,2023.1.3,None
12,1,1,23.34327654,23.83423875,23.83423875,23.8382775,24.12099567,right,1,1,1,0.805302916,650183,1,2023-09-15_20h01.36.078,Tutorial1,2023.1.3,None
13,0.5,1,24.66011129,25.15099267,25.15099267,25.15616171,25.43764442,right,1,0,0,0.724298166,650183,1,2023-09-15_20h01.36.078,Tutorial1,2023.1.3,None
14,0.5,1.5,25.89393642,26.38426854,26.38426854,26.38846554,26.671026,right,1.5,1,1,0.671994416,650183,1,2023-09-15_20h01.36.078,Tutorial1,2023.1.3,None
15,0.5,1.5,27.0769625,27.56767512,27.56767512,27.57229425,27.854447,left,-1.5,0,0,0.452533791,650183,1,2023-09-15_20h01.36.078,Tutorial1,2023.1.3,None
16,0.5,2,28.03435704,28.51769533,28.51769533,28.52190662,28.80528417,left,-2,1,1,0.651480791,650183,1,2023-09-15_20h01.36.078,Tutorial1,2023.1.3,None
17,0.5,2,29.18431887,29.6677935,29.6677935,29.67277558,29.95469408,left,-2,1,1,0.648578833,650183,1,2023-09-15_20h01.36.078,Tutorial1,2023.1.3,None
18,0.5,2,30.32693304,30.81765912,30.81765912,30.82233,31.105079,left,-2,1,1,0.824427832,650183,1,2023-09-15_20h01.36.078,Tutorial1,2023.1.3,None
19,0.5,1.5,31.660158,32.15108325,32.15108325,32.15527471,32.43794812,left,-1.5,1,1,0.587982916,650183,1,2023-09-15_20h01.36.078,Tutorial1,2023.1.3,None
20,0.5,1.5,32.7600755,33.2510715,33.2510715,33.25526842,33.53860675,right,1.5,1,1,0.568623457,650183,1,2023-09-15_20h01.36.078,Tutorial1,2023.1.3,None
21,0.5,1.5,33.83424342,34.31781142,34.31781142,34.32189312,34.60456321,right,1.5,1,1,0.573190332,650183,1,2023-09-15_20h01.36.078,Tutorial1,2023.1.3,None
22,0.5,1,34.91000225,35.40105821,35.40105821,35.40533587,35.68828862,right,1,1,1,0.618419165,650183,1,2023-09-15_20h01.36.078,Tutorial1,2023.1.3,None
23,0.5,1,36.03447675,36.51783387,36.51783387,36.52197812,36.80465533,left,-1,1,1,0.606559124,650183,1,2023-09-15_20h01.36.078,Tutorial1,2023.1.3,None
24,0.5,1,37.14382,37.6345065,37.6345065,37.63865179,37.92079267,right,1,1,1,0.696544124,650183,1,2023-09-15_20h01.36.078,Tutorial1,2023.1.3,None
25,0.5,1,38.34335575,38.83443021,38.83443021,38.83839025,39.12181708,right,1,1,1,0.877754874,650183,1,2023-09-15_20h01.36.078,Tutorial1,2023.1.3,None
26,0.5,1,39.726738,40.21787783,40.21787783,40.22233083,40.50454775,right,1,1,1,0.563131749,650183,1,2023-09-15_20h01.36.078,Tutorial1,2023.1.3,None
27,0.5,1,40.79484304,41.28455679,41.28455679,41.28864858,41.57164437,left,-1,1,1,0.501508624,650183,1,2023-09-15_20h01.36.078,Tutorial1,2023.1.3,None
28,0.5,1,41.80114104,42.28456079,42.28456079,42.28897679,42.57165675,left,-1,1,1,0.527781207,650183,1,2023-09-15_20h01.36.078,Tutorial1,2023.1.3,None
29,0.5,1,42.82782992,43.31781883,43.31781883,43.32228879,43.60511117,left,-1,1,1,0.580773041,650183,1,2023-09-15_20h01.36.078,Tutorial1,2023.1.3,None
30,0.5,1,43.91111108,44.40125221,44.40125221,44.40542079,44.68797733,left,-1,1,1,0.491691707,650183,1,2023-09-15_20h01.36.078,Tutorial1,2023.1.3,None
31,0.5,1,44.9095085,45.40119512,45.40119512,45.40531229,45.68768812,right,1,1,1,0.591308582,650183,1,2023-09-15_20h01.36.078,Tutorial1,2023.1.3,None
32,0.5,1,46.01068129,46.49110792,46.49110792,46.49696729,46.78756492,right,1,1,1,0.675987582,650183,1,2023-09-15_20h01.36.078,Tutorial1,2023.1.3,None
33,0.5,1,47.17733229,47.667981,47.667981,47.67213458,47.95592317,right,1,1,1,0.611037083,650183,1,2023-09-15_20h01.36.078,Tutorial1,2023.1.3,None
34,0.5,1,48.294384,48.78461712,48.78461712,48.78952854,49.07147583,left,-1,1,1,0.631393082,650183,1,2023-09-15_20h01.36.078,Tutorial1,2023.1.3,None
35,0.5,1,49.42723333,49.91793154,49.91793154,49.92223525,50.2049515,right,1,1,1,0.623959207,650183,1,2023-09-15_20h01.36.078,Tutorial1,2023.1.3,None
36,0.5,1,50.56041642,51.05135187,51.05135187,51.05548479,51.33840637,right,1,1,1,0.824395166,650183,1,2023-09-15_20h01.36.078,Tutorial1,2023.1.3,None
37,0.5,1,51.89354762,52.38471296,52.38471296,52.38884404,52.67149992,right,1,1,1,0.519715749,650183,1,2023-09-15_20h01.36.078,Tutorial1,2023.1.3,None
38,0.5,1,52.91772779,53.40526454,53.40526454,53.40526454,53.70140496,left,-1,1,1,0.620228166,650183,1,2023-09-15_20h01.36.078,Tutorial1,2023.1.3,None
39,0.5,1,54.04406258,54.53464808,54.53464808,54.53866992,54.82180825,left,-1,1,1,0.523727666,650183,1,2023-09-15_20h01.36.078,Tutorial1,2023.1.3,None
40,0.5,1,55.07839867,55.56800083,55.56800083,55.57249537,55.85517571,right,1,1,1,0.65515254,650183,1,2023-09-15_20h01.36.078,Tutorial1,2023.1.3,None
41,0.5,1,56.24344475,56.73470833,56.73470833,56.73894142,57.02184325,left,-1,1,1,0.525641207,650183,1,2023-09-15_20h01.36.078,Tutorial1,2023.1.3,None
42,0.5,1,57.27686525,57.76813246,57.76813246,57.77228675,58.05532346,right,1,1,1,0.475574166,650183,1,2023-09-15_20h01.36.078,Tutorial1,2023.1.3,None
43,0.5,1,58.26093804,58.75146925,58.75146925,58.75579463,59.03922362,left,-1,1,1,0.504635208,650183,1,2023-09-15_20h01.36.078,Tutorial1,2023.1.3,None
44,0.5,1,59.27714937,59.76816625,59.76816625,59.77235717,60.0550195,left,-1,1,1,0.585671582,650183,1,2023-09-15_20h01.36.078,Tutorial1,2023.1.3,None
45,0.5,1,60.36814871,60.85155521,60.85155521,60.85666642,61.13805504,right,1,1,1,0.574281374,650183,1,2023-09-15_20h01.36.078,Tutorial1,2023.1.3,None
46,0.5,1,61.4440655,61.93476508,61.93476508,61.93882817,62.22165787,left,-1,1,1,0.502294833,650183,1,2023-09-15_20h01.36.078,Tutorial1,2023.1.3,None
47,0.5,1,62.45124912,63.42815246,63.42815246,63.42815246,63.72124092,right,1,1,1,0.595494582,650183,1,2023-09-15_20h01.36.078,Tutorial1,2023.1.3,None
48,0.5,1,64.04386858,64.53487617,64.53487617,64.53891667,64.82156167,right,1,1,1,1.080720332,650183,1,2023-09-15_20h01.36.078,Tutorial1,2023.1.3,None
49,0.5,1,65.62785617,66.118237,66.118237,66.12251862,66.40542354,right,1,1,1,0.852627666,650183,1,2023-09-15_20h01.36.078,Tutorial1,2023.1.3,None
50,0.5,1,66.98494379,67.46827529,67.46827529,67.47248075,67.75553396,right,1,1,1,0.635890332,650183,1,2023-09-15_20h01.36.078,Tutorial1,2023.1.3,None
51,0.5,1,68.11830671,68.601596,68.601596,68.60560683,68.88906188,left,-1,1,1,0.55580004,650183,1,2023-09-15_20h01.36.078,Tutorial1,2023.1.3,None
52,0.5,1,69.17723771,69.66832912,69.66832912,69.67302767,69.95545204,left,-1,1,1,0.508491916,650183,1,2023-09-15_20h01.36.078,Tutorial1,2023.1.3,None
53,0.5,1,70.19402479,70.68499917,70.68499917,70.68937354,70.971653,left,-1,1,1,0.435128041,650183,1,2023-09-15_20h01.36.078,Tutorial1,2023.1.3,None
54,0.5,1,71.13470604,71.62205458,71.62205458,71.62205458,71.918369,right,1,1,1,0.749022457,650183,1,2023-09-15_20h01.36.078,Tutorial1,2023.1.3,None
55,0.5,1,72.38502921,72.86836479,72.86836479,72.87306208,73.15547946,right,1,1,1,0.602658832,650183,1,2023-09-15_20h01.36.078,Tutorial1,2023.1.3,None
56,0.5,1,73.48502575,73.96830679,73.96830679,73.97310583,74.25550425,right,1,1,1,1.080587291,650183,1,2023-09-15_20h01.36.078,Tutorial1,2023.1.3,None
57,0.5,1,75.06102733,75.55172804,75.55172804,75.55591637,75.83898908,right,1,0,0,1.143832958,650183,1,2023-09-15_20h01.36.078,Tutorial1,2023.1.3,None
58,0.5,1.5,76.71011933,77.19107833,77.19107833,77.20542762,77.48889717,right,1.5,1,1,0.630607374,650183,1,2023-09-15_20h01.36.078,Tutorial1,2023.1.3,None
59,0.5,1.5,77.83511642,78.32217137,78.32217137,78.32217137,78.61839896,right,1.5,1,1,0.566376666,650183,1,2023-09-15_20h01.36.078,Tutorial1,2023.1.3,None
60,0.5,1.5,78.90180113,79.38514446,79.38514446,79.38930442,79.67256442,left,-1.5,1,1,0.472622333,650183,1,2023-09-15_20h01.36.078,Tutorial1,2023.1.3,None
61,0.5,1,79.87829254,80.36861721,80.36861721,80.37267383,80.65519162,left,-1,1,1,0.555297416,650183,1,2023-09-15_20h01.36.078,Tutorial1,2023.1.3,None
62,0.5,1,80.94383196,81.43521792,81.43521792,81.43933687,81.72323654,right,1,0,0,0.534880457,650183,1,2023-09-15_20h01.36.078,Tutorial1,2023.1.3,None
63,0.5,1.5,81.98489108,82.46851233,82.46851233,82.4727335,82.75531879,right,1.5,1,1,0.547218415,650183,1,2023-09-15_20h01.36.078,Tutorial1,2023.1.3,None
64,0.5,1.5,83.02712396,83.51850733,83.51850733,83.52271692,83.80546846,right,1.5,1,1,0.737654624,650183,1,2023-09-15_20h01.36.078,Tutorial1,2023.1.3,None
65,0.5,1.5,84.27728375,84.76842104,84.76842104,84.77244354,85.05521312,right,1.5,1,1,0.718117791,650183,1,2023-09-15_20h01.36.078,Tutorial1,2023.1.3,None
66,0.5,1,85.50188342,85.98525142,85.98525142,85.98955346,86.27231121,right,1,1,1,0.495721541,650183,1,2023-09-15_20h01.36.078,Tutorial1,2023.1.3,None
67,0.5,1,86.49391171,86.98526546,86.98526546,86.98966875,87.27167342,right,1,1,1,0.787998707,650183,1,2023-09-15_20h01.36.078,Tutorial1,2023.1.3,None
68,0.5,1,87.79455196,88.28517204,88.28517204,88.28923933,88.57259612,left,-1,1,1,0.612700582,650183,1,2023-09-15_20h01.36.078,Tutorial1,2023.1.3,None
69,0.5,1,88.91277387,89.40195154,89.40195154,89.40624412,89.68893429,left,-1,1,1,0.636056915,650183,1,2023-09-15_20h01.36.078,Tutorial1,2023.1.3,None
70,0.5,1,90.05206233,90.535269,90.535269,90.53938992,90.82235854,left,-1,1,1,0.639929166,650183,1,2023-09-15_20h01.36.078,Tutorial1,2023.1.3,None
71,0.5,1,91.19449863,91.68530425,91.68530425,91.68977063,91.97242571,right,1,0,0,1.201767207,650183,1,2023-09-15_20h01.36.078,Tutorial1,2023.1.3,None
72,0.5,1.5,92.90199121,93.38533029,93.38533029,93.38962371,93.67246683,left,-1.5,1,1,0.794806582,650183,1,2023-09-15_20h01.36.078,Tutorial1,2023.1.3,None
73,0.5,1.5,94.193945,94.68523367,94.68523367,94.68922967,94.97292067,left,-1.5,1,1,0.636193041,650183,1,2023-09-15_20h01.36.078,Tutorial1,2023.1.3,None
74,0.5,1.5,95.33527171,95.81869129,95.81869129,95.82288512,96.10542737,right,1.5,1,1,0.618782374,650183,1,2023-09-15_20h01.36.078,Tutorial1,2023.1.3,None
75,0.5,1,96.45187679,96.93526667,96.93526667,96.93932437,97.222399,left,-1,1,1,1.595137332,650183,1,2023-09-15_20h01.36.078,Tutorial1,2023.1.3,None
76,0.5,1,98.54453746,99.03534537,99.03534537,99.03945742,99.32206142,left,-1,0,0,0.619903166,650183,1,2023-09-15_20h01.36.078,Tutorial1,2023.1.3,None
77,0.5,1.5,99.66876833,100.1520688,100.1520688,100.1562378,100.440054,left,-1.5,1,1,0.655572332,650183,1,2023-09-15_20h01.36.078,Tutorial1,2023.1.3,None
78,0.5,1.5,100.8272188,101.3187859,101.3187859,101.3229305,101.6073948,right,1.5,1,1,0.535390541,650183,1,2023-09-15_20h01.36.078,Tutorial1,2023.1.3,None
79,0.5,1.5,101.8688078,102.3521732,102.3521732,102.3565,102.6393514,left,-1.5,1,1,0.826564624,650183,1,2023-09-15_20h01.36.078,Tutorial1,2023.1.3,None
80,0.5,1,103.1947509,103.6854847,103.6854847,103.6896981,103.9726226,left,-1,1,1,0.849325458,650183,1,2023-09-15_20h01.36.078,Tutorial1,2023.1.3,None
81,0.5,1,104.5440362,105.0354952,105.0354952,105.0395082,105.3227582,left,-1,1,1,0.619591208,650183,1,2023-09-15_20h01.36.078,Tutorial1,2023.1.3,None
82,0.5,1,105.6687635,106.1522136,106.1522136,106.156368,106.4391065,right,1,1,1,0.569325999,650183,1,2023-09-15_20h01.36.078,Tutorial1,2023.1.3,None
83,0.5,1,106.7352994,107.218937,107.218937,107.2230288,107.5061167,right,1,1,1,0.528970249,650183,1,2023-09-15_20h01.36.078,Tutorial1,2023.1.3,None
84,0.5,1,107.7614858,108.2521971,108.2521971,108.2572505,108.5389779,right,1,1,1,0.485418374,650183,1,2023-09-15_20h01.36.078,Tutorial1,2023.1.3,None
85,0.5,1,108.7522076,109.2398212,109.2398212,109.2398212,109.5356196,left,-1,1,1,0.648487165,650183,1,2023-09-15_20h01.36.078,Tutorial1,2023.1.3,None
86,0.5,1,109.90228,110.3855767,110.3855767,110.3897672,110.6730284,right,1,1,1,0.768615124,650183,1,2023-09-15_20h01.36.078,Tutorial1,2023.1.3,None
87,0.5,1,111.1689402,111.65607,111.65607,111.65607,111.9523292,right,1,1,1,0.664654707,650183,1,2023-09-15_20h01.36.078,Tutorial1,2023.1.3,None
88,0.5,1,112.3354194,112.8185627,112.8185627,112.8220634,113.1050546,right,1,1,1,0.685564916,650183,1,2023-09-15_20h01.36.078,Tutorial1,2023.1.3,None
89,0.5,1,113.5187553,114.0062141,114.0062141,114.0062141,114.3018284,left,-1,1,1,0.620841958,650183,1,2023-09-15_20h01.36.078,Tutorial1,2023.1.3,None
90,0.5,1,114.644503,115.1356346,115.1356346,115.1397366,115.423524,left,-1,1,1,0.569815832,650183,1,2023-09-15_20h01.36.078,Tutorial1,2023.1.3,None
91,0.5,1,115.718949,116.2063678,116.2063678,116.2063678,116.5024247,right,1,1,1,0.738958832,650183,1,2023-09-15_20h01.36.078,Tutorial1,2023.1.3,None
92,0.5,1,116.9618064,117.4523608,117.4523608,117.45679,117.7396192,right,1,1,1,0.736231499,650183,1,2023-09-15_20h01.36.078,Tutorial1,2023.1.3,None
93,0.5,1,118.2023837,118.6856839,118.6856839,118.6902408,118.9740485,right,1,1,1,0.559540499,650183,1,2023-09-15_20h01.36.078,Tutorial1,2023.1.3,None
94,0.5,1,119.2614885,119.7523116,119.7523116,119.7563885,120.0393871,left,-1,1,1,0.608172791,650183,1,2023-09-15_20h01.36.078,Tutorial1,2023.1.3,None
95,0.5,1,120.3791092,120.8690767,120.8690767,120.8732642,121.156641,left,-1,1,1,0.556516207,650183,1,2023-09-15_20h01.36.078,Tutorial1,2023.1.3,None
96,0.5,1,121.4455817,121.9357296,121.9357296,121.9404824,122.2230924,left,-1,1,1,0.622440749,650183,1,2023-09-15_20h01.36.078,Tutorial1,2023.1.3,None
97,0.5,1,122.5779442,123.069132,123.069132,123.0732135,123.3559645,right,1,0,0,0.637165457,650183,1,2023-09-15_20h01.36.078,Tutorial1,2023.1.3,None
98,0.5,1.5,123.7252843,124.2191437,124.2191437,124.2232934,124.5064258,left,-1.5,1,1,0.622998832,650183,1,2023-09-15_20h01.36.078,Tutorial1,2023.1.3,None
99,0.5,1.5,124.8614409,125.3526339,125.3526339,125.3567373,125.6393464,left,-1.5,1,1,0.612575249,650183,1,2023-09-15_20h01.36.078,Tutorial1,2023.1.3,None
100,0.5,1.5,125.9785306,126.4691011,126.4691011,126.4732923,126.7569281,left,-1.5,1,1,0.618860332,650183,1,2023-09-15_20h01.36.078,Tutorial1,2023.1.3,None
101,0.5,1,127.1025092,127.5857638,127.5857638,127.5898457,127.8729507,right,1,1,1,0.719615249,650183,1,2023-09-15_20h01.36.078,Tutorial1,2023.1.3,None
102,0.5,1,128.3191897,128.8025032,128.8025032,128.8065356,129.090181,left,-1,1,1,0.577782666,650183,1,2023-09-15_20h01.36.078,Tutorial1,2023.1.3,None
103,0.5,1,129.3959306,129.8859098,129.8859098,129.8902352,130.1731322,right,1,1,1,0.625568583,650183,1,2023-09-15_20h01.36.078,Tutorial1,2023.1.3,None
104,0.5,1,130.5283081,131.0193591,131.0193591,131.0240631,131.3063675,right,1,1,1,0.676857333,650183,1,2023-09-15_20h01.36.078,Tutorial1,2023.1.3,None
105,0.5,1,131.7123752,132.2025963,132.2025963,132.2069006,132.4895448,left,-1,1,1,0.651198832,650183,1,2023-09-15_20h01.36.078,Tutorial1,2023.1.3,None
106,0.5,1,132.8691795,133.3526157,133.3526157,133.3566455,133.6399268,left,-1,1,1,0.636313749,650183,1,2023-09-15_20h01.36.078,Tutorial1,2023.1.3,None
107,0.5,1,134.0025865,134.4859125,134.4859125,134.4903537,134.7729489,right,1,1,1,0.713959916,650183,1,2023-09-15_20h01.36.078,Tutorial1,2023.1.3,None
108,0.5,1,135.2117912,135.7026512,135.7026512,135.7067657,135.9895187,left,-1,1,1,0.562927207,650183,1,2023-09-15_20h01.36.078,Tutorial1,2023.1.3,None
109,0.5,1,136.2787001,136.7692235,136.7692235,136.7735641,137.0564433,left,-1,1,1,0.624176124,650183,1,2023-09-15_20h01.36.078,Tutorial1,2023.1.3,None
110,0.5,1,137.4115611,137.9027222,137.9027222,137.9068013,138.1897908,right,1,0,0,0.690018916,650183,1,2023-09-15_20h01.36.078,Tutorial1,2023.1.3,None
111,0.5,1.5,138.612061,139.1025809,139.1025809,139.1071343,139.389712,left,-1.5,1,1,0.415862915,650183,1,2023-09-15_20h01.36.078,Tutorial1,2023.1.3,None
112,0.5,1.5,139.5279488,140.0193562,140.0193562,140.0237066,140.3064602,right,1.5,0,0,0.553912582,650183,1,2023-09-15_20h01.36.078,Tutorial1,2023.1.3,None
113,0.5,2,140.585968,141.0693259,141.0693259,141.0734036,141.3564918,left,-2,1,1,0.469001333,650183,1,2023-09-15_20h01.36.078,Tutorial1,2023.1.3,None
114,0.5,2,141.552747,142.0398577,142.0398577,142.0398577,142.3362021,right,2,1,1,0.617246291,650183,1,2023-09-15_20h01.36.078,Tutorial1,2023.1.3,None
115,0.5,2,142.6780252,143.1694075,143.1694075,143.173687,143.456226,right,2,1,1,0.942821582,650183,1,2023-09-15_20h01.36.078,Tutorial1,2023.1.3,None
116,0.5,1.5,144.1282649,144.6194315,144.6194315,144.6236036,144.9061402,left,-1.5,1,1,0.510187916,650183,1,2023-09-15_20h01.36.078,Tutorial1,2023.1.3,None
117,0.5,1.5,145.1455058,145.6361232,145.6361232,145.6409895,145.9234286,right,1.5,0,0,0.610796291,650183,1,2023-09-15_20h01.36.078,Tutorial1,2023.1.3,None
118,0.5,2,146.2616283,146.7526923,146.7526923,146.7569777,147.0398596,right,2,0,0,0.638498332,650183,1,2023-09-15_20h01.36.078,Tutorial1,2023.1.3,None
119,0.5,2.5,147.4134517,147.9027872,147.9027872,147.9070626,148.1905134,left,-2.5,1,1,0.596181333,650183,1,2023-09-15_20h01.36.078,Tutorial1,2023.1.3,None
120,0.5,2.5,148.5122397,149.0027941,149.0027941,149.0069335,149.2893565,right,2.5,0,0,0.606924791,650183,1,2023-09-15_20h01.36.078,Tutorial1,2023.1.3,None
121,0.5,3,149.6288307,150.1194892,150.1194892,150.1235649,150.4066457,left,-3,1,1,0.625901415,650183,1,2023-09-15_20h01.36.078,Tutorial1,2023.1.3,None
122,0.5,3,150.7620513,151.2528525,151.2528525,151.2569999,151.5395508,left,-3,1,1,0.404058583,650183,1,2023-09-15_20h01.36.078,Tutorial1,2023.1.3,None
123,0.5,3,151.6695287,152.1573773,152.1573773,152.1573773,152.4562319,left,-3,1,1,0.581248332,650183,1,2023-09-15_20h01.36.078,Tutorial1,2023.1.3,None
124,0.5,2.5,152.7528439,153.2362547,153.2362547,153.241173,153.5229726,right,2.5,1,1,0.651771332,650183,1,2023-09-15_20h01.36.078,Tutorial1,2023.1.3,None
125,0.5,2.5,153.9029098,154.3862228,154.3862228,154.390434,154.6732335,left,-2.5,1,1,0.609203124,650183,1,2023-09-15_20h01.36.078,Tutorial1,2023.1.3,None
126,0.5,2.5,155.0120478,155.5029052,155.5029052,155.5073869,155.7898524,left,-2.5,1,1,0.518103416,650183,1,2023-09-15_20h01.36.078,Tutorial1,2023.1.3,None
127,0.5,2,156.0362204,156.5195707,156.5195707,156.5241217,156.806861,right,2,0,0,0.592573458,650183,1,2023-09-15_20h01.36.078,Tutorial1,2023.1.3,None
128,0.5,2.5,157.128961,157.6195157,157.6195157,157.6238336,157.9065483,left,-2.5,1,1,0.476515458,650183,1,2023-09-15_20h01.36.078,Tutorial1,2023.1.3,None
129,0.5,2.5,158.1130483,158.6028402,158.6028402,158.6071267,158.8897509,left,-2.5,1,1,0.460776874,650183,1,2023-09-15_20h01.36.078,Tutorial1,2023.1.3,None
130,0.5,2.5,159.0787157,159.5696252,159.5696252,159.5741475,159.856661,right,2.5,1,1,0.609553832,650183,1,2023-09-15_20h01.36.078,Tutorial1,2023.1.3,None
131,0.5,2,160.1954907,160.6863382,160.6863382,160.6905238,160.9734578,right,2,0,0,0.555694874,650183,1,2023-09-15_20h01.36.078,Tutorial1,2023.1.3,None
132,0.5,2.5,161.26196,161.7529678,161.7529678,161.7570257,162.0401349,right,2.5,1,1,0.651423749,650183,1,2023-09-15_20h01.36.078,Tutorial1,2023.1.3,None
133,0.5,2.5,162.4197392,162.902995,162.902995,162.9071713,163.189838,left,-2.5,1,1,0.493670582,650183,1,2023-09-15_20h01.36.078,Tutorial1,2023.1.3,None
134,0.5,2.5,163.4130125,163.9030212,163.9030212,163.9070444,164.1896783,right,2.5,1,1,0.544764957,650183,1,2023-09-15_20h01.36.078,Tutorial1,2023.1.3,None
135,0.5,2,164.4614725,164.9422301,164.9422301,164.9569212,165.2402128,left,-2,1,1,0.550403166,650183,1,2023-09-15_20h01.36.078,Tutorial1,2023.1.3,None
136,0.5,2,165.5124787,166.0031045,166.0031045,166.007147,166.2899562,left,-2,1,1,0.619322624,650183,1,2023-09-15_20h01.36.078,Tutorial1,2023.1.3,None
137,0.5,2,166.6364032,167.1198301,167.1198301,167.1239469,167.4070466,left,-2,1,1,0.587752791,650183,1,2023-09-15_20h01.36.078,Tutorial1,2023.1.3,None
138,0.5,1.5,167.7194276,168.2071599,168.2071599,168.2071599,168.5031594,left,-1.5,1,1,0.549910749,650183,1,2023-09-15_20h01.36.078,Tutorial1,2023.1.3,None
139,0.5,1.5,168.7694514,169.2574904,169.2574904,169.2574904,169.5531943,right,1.5,1,1,0.661468457,650183,1,2023-09-15_20h01.36.078,Tutorial1,2023.1.3,None
140,0.5,1.5,169.92915,170.419809,170.419809,170.4243295,170.706508,left,-1.5,1,1,0.564464249,650183,1,2023-09-15_20h01.36.078,Tutorial1,2023.1.3,None
141,0.5,1,170.9955927,171.4864694,171.4864694,171.491069,171.7732308,right,1,1,1,0.70177329,650183,1,2023-09-15_20h01.36.078,Tutorial1,2023.1.3,None
142,0.5,1,172.2032007,172.6864154,172.6864154,172.6905672,172.9737156,left,-1,1,1,0.639202457,650183,1,2023-09-15_20h01.36.078,Tutorial1,2023.1.3,None
143,0.5,1,173.3452313,173.8365095,173.8365095,173.8413323,174.1237871,left,-1,1,1,0.60851654,650183,1,2023-09-15_20h01.36.078,Tutorial1,2023.1.3,None
144,0.5,1,174.4620545,174.9531619,174.9531619,174.9577286,175.2399489,left,-1,1,1,0.568413957,650183,1,2023-09-15_20h01.36.078,Tutorial1,2023.1.3,None
145,0.5,1,175.5365378,176.023738,176.023738,176.023738,176.3199787,right,1,0,0,0.604260041,650183,1,2023-09-15_20h01.36.078,Tutorial1,2023.1.3,None
146,0.5,1.5,176.6453844,177.1365428,177.1365428,177.1409664,177.4234973,right,1.5,0,0,0.597696749,650183,1,2023-09-15_20h01.36.078,Tutorial1,2023.1.3,None
147,0.5,2,177.7465456,178.2365311,178.2365311,178.240617,178.5249294,right,2,1,1,0.654821124,650183,1,2023-09-15_20h01.36.078,Tutorial1,2023.1.3,None
148,0.5,2,178.9119648,179.4033071,179.4033071,179.4074847,179.6905474,right,2,1,1,0.601639916,650183,1,2023-09-15_20h01.36.078,Tutorial1,2023.1.3,None
149,0.5,2,180.0199087,180.5033196,180.5033196,180.5074015,180.7899445,right,2,1,1,0.474388082,650183,1,2023-09-15_20h01.36.078,Tutorial1,2023.1.3,None
150,0.5,1.5,180.9957624,181.4866246,181.4866246,181.4910712,181.7736477,right,1.5,1,1,0.618702957,650183,1,2023-09-15_20h01.36.078,Tutorial1,2023.1.3,None
151,0.5,1.5,182.119955,182.6072249,182.6072249,182.6072249,182.903343,left,-1.5,1,1,0.555506791,650183,1,2023-09-15_20h01.36.078,Tutorial1,2023.1.3,None
152,0.5,1.5,183.1793481,183.6699127,183.6699127,183.674222,183.9586115,left,-1.5,1,1,0.52238579,650183,1,2023-09-15_20h01.36.078,Tutorial1,2023.1.3,None
153,0.5,1,184.2120126,184.703298,184.703298,184.7076146,184.9916705,right,1,0,0,0.502218374,650183,1,2023-09-15_20h01.36.078,Tutorial1,2023.1.3,None
154,0.5,1.5,185.2197663,185.7070977,185.7070977,185.7070977,186.0036506,left,-1.5,1,1,0.669556541,650183,1,2023-09-15_20h01.36.078,Tutorial1,2023.1.3,None
155,0.5,1.5,186.3964183,186.8868251,186.8868251,186.8909315,187.1747933,left,-1.5,1,1,0.439529874,650183,1,2023-09-15_20h01.36.078,Tutorial1,2023.1.3,None
156,0.5,1.5,187.3457879,187.8367244,187.8367244,187.840821,188.1234983,left,-1.5,1,1,0.625887499,650183,1,2023-09-15_20h01.36.078,Tutorial1,2023.1.3,None
157,0.5,1,188.4790409,188.9700911,188.9700911,188.9746673,189.2575369,left,-1,1,1,0.605064165,650183,1,2023-09-15_20h01.36.078,Tutorial1,2023.1.3,None
158,0.5,1,189.5958577,190.0867515,190.0867515,190.0912283,190.3738295,left,-1,1,1,0.518393165,650183,1,2023-09-15_20h01.36.078,Tutorial1,2023.1.3,None
159,0.5,1,190.6201363,191.1034934,191.1034934,191.1082869,191.3900088,right,1,0,0,0.652577249,650183,1,2023-09-15_20h01.36.078,Tutorial1,2023.1.3,None
160,0.5,1.5,191.7700371,192.2581002,192.2581002,192.2581002,192.5535039,left,-1.5,1,1,0.497206083,650183,1,2023-09-15_20h01.36.078,Tutorial1,2023.1.3,None
161,0.5,1.5,192.7701324,193.2535251,193.2535251,193.2585474,193.5411933,left,-1.5,1,1,0.492376666,650183,1,2023-09-15_20h01.36.078,Tutorial1,2023.1.3,None
162,0.5,1.5,193.7623366,194.2534965,194.2534965,194.2576329,194.5408523,left,-1.5,1,1,0.598350874,650183,1,2023-09-15_20h01.36.078,Tutorial1,2023.1.3,None
163,0.5,1,194.8622835,195.3534685,195.3534685,195.3576303,195.6400077,right,1,0,0,0.409201041,650183,1,2023-09-15_20h01.36.078,Tutorial1,2023.1.3,None
164,0.5,1.5,195.77929,196.2701491,196.2701491,196.2745897,196.5573287,right,1.5,0,0,0.542005332,650183,1,2023-09-15_20h01.36.078,Tutorial1,2023.1.3,None
165,0.5,2,196.8290676,197.320204,197.320204,197.3246633,197.6067811,left,-2,1,1,0.415075624,650183,1,2023-09-15_20h01.36.078,Tutorial1,2023.1.3,None
166,0.5,2,197.7461223,198.2369171,198.2369171,198.2410889,198.5240948,right,2,1,1,0.75210504,650183,1,2023-09-15_20h01.36.078,Tutorial1,2023.1.3,None
167,0.5,2,199.0034858,199.4869084,199.4869084,199.4913835,199.7740511,left,-2,1,1,0.623208624,650183,1,2023-09-15_20h01.36.078,Tutorial1,2023.1.3,None
168,0.5,1.5,200.1296376,200.620235,200.620235,200.6248448,200.9068804,left,-1.5,1,1,0.496176124,650183,1,2023-09-15_20h01.36.078,Tutorial1,2023.1.3,None
169,0.5,1.5,201.1289986,201.6202475,201.6202475,201.6244318,201.9071013,right,1.5,0,0,0.568419457,650183,1,2023-09-15_20h01.36.078,Tutorial1,2023.1.3,None
170,0.5,2,202.2035637,202.691407,202.691407,202.691407,202.9872474,left,-2,1,1,0.576880416,650183,1,2023-09-15_20h01.36.078,Tutorial1,2023.1.3,None
171,0.5,2,203.2794134,203.7702655,203.7702655,203.774842,204.057577,left,-2,1,1,0.619216874,650183,1,2023-09-15_20h01.36.078,Tutorial1,2023.1.3,None
172,0.5,2,204.4036669,204.8869654,204.8869654,204.8910306,205.1737385,right,2,1,1,1.035727332,650183,1,2023-09-15_20h01.36.078,Tutorial1,2023.1.3,None
173,0.5,1.5,205.9369312,206.4203515,206.4203515,206.4255805,206.7080194,left,-1.5,1,1,0.719061874,650183,1,2023-09-15_20h01.36.078,Tutorial1,2023.1.3,None
174,0.5,1.5,207.1536535,207.6369735,207.6369735,207.6415816,207.9242345,left,-1.5,1,1,0.629416207,650183,1,2023-09-15_20h01.36.078,Tutorial1,2023.1.3,None
175,0.5,1.5,208.2796477,208.7703451,208.7703451,208.7745383,209.0574979,left,-1.5,1,1,0.485667833,650183,1,2023-09-15_20h01.36.078,Tutorial1,2023.1.3,None
176,0.5,1,209.2703831,209.7536729,209.7536729,209.7577287,210.0408482,right,1,1,1,1.418835207,650183,1,2023-09-15_20h01.36.078,Tutorial1,2023.1.3,None
177,0.5,1,211.1871059,211.6703695,211.6703695,211.6743869,211.9574953,left,-1,1,1,0.558820083,650183,1,2023-09-15_20h01.36.078,Tutorial1,2023.1.3,None
178,0.5,1,212.2462138,212.7371209,212.7371209,212.7411677,213.0238524,left,-1,1,1,0.752998666,650183,1,2023-09-15_20h01.36.078,Tutorial1,2023.1.3,None
179,0.5,1,213.5036946,213.9871069,213.9871069,213.9912994,214.2743769,left,-1,1,1,0.775270374,650183,1,2023-09-15_20h01.36.078,Tutorial1,2023.1.3,None
180,0.5,1,214.7793088,215.2600772,215.2600772,215.2740867,215.5577071,left,-1,1,1,0.696026499,650183,1,2023-09-15_20h01.36.078,Tutorial1,2023.1.3,None
181,0.5,1,215.9704364,216.4538517,216.4538517,216.4585267,216.7405105,right,1,0,0,0.426215124,650183,1,2023-09-15_20h01.36.078,Tutorial1,2023.1.3,None
182,0.5,1.5,216.8962767,217.3871745,217.3871745,217.3912328,217.6748637,right,1.5,0,0,0.452413416,650183,1,2023-09-15_20h01.36.078,Tutorial1,2023.1.3,None
183,0.5,2,217.8538381,218.3409643,218.3409643,218.3409643,218.6372569,left,-2,1,1,0.580940416,650183,1,2023-09-15_20h01.36.078,Tutorial1,2023.1.3,None
184,0.5,2,218.9371815,219.425183,219.425183,219.425183,219.7205645,right,2,1,1,0.572709416,650183,1,2023-09-15_20h01.36.078,Tutorial1,2023.1.3,None
185,0.5,2,220.012895,220.5037881,220.5037881,220.5085363,220.7911075,left,-2,0,0,0.589627165,650183,1,2023-09-15_20h01.36.078,Tutorial1,2023.1.3,None
186,0.5,2.5,221.1125833,221.603827,221.603827,221.6080409,221.8909452,left,-2.5,1,1,0.604816707,650183,1,2023-09-15_20h01.36.078,Tutorial1,2023.1.3,None
187,0.5,2.5,222.2296483,222.720599,222.720599,222.7246649,223.0076044,right,2.5,1,1,0.444057666,650183,1,2023-09-15_20h01.36.078,Tutorial1,2023.1.3,None
188,0.5,2.5,223.1797737,223.6705757,223.6705757,223.6748608,223.9578343,right,2.5,1,1,0.554396207,650183,1,2023-09-15_20h01.36.078,Tutorial1,2023.1.3,None
189,0.5,2,224.2372656,224.7244561,224.7244561,224.7244561,225.0206093,right,2,1,1,0.52884954,650183,1,2023-09-15_20h01.36.078,Tutorial1,2023.1.3,None
190,0.5,2,225.2623431,225.7539187,225.7539187,225.7583678,226.0410231,right,2,1,1,0.623910208,650183,1,2023-09-15_20h01.36.078,Tutorial1,2023.1.3,None
191,0.5,2,226.395989,226.8874047,226.8874047,226.8914692,227.1740406,right,2,1,1,0.623985458,650183,1,2023-09-15_20h01.36.078,Tutorial1,2023.1.3,None
192,0.5,1.5,227.5294977,228.0205301,228.0205301,228.0245774,228.3072253,right,1.5,1,1,0.406277707,650183,1,2023-09-15_20h01.36.078,Tutorial1,2023.1.3,None
193,0.5,1.5,228.4467892,228.9372435,228.9372435,228.9413925,229.2243132,right,1.5,1,1,0.43002454,650183,1,2023-09-15_20h01.36.078,Tutorial1,2023.1.3,None
194,0.5,1.5,229.3793282,229.8705117,229.8705117,229.8745817,230.1578748,left,-1.5,1,1,0.668357249,650183,1,2023-09-15_20h01.36.078,Tutorial1,2023.1.3,None
195,0.5,1,230.5540441,231.0373236,231.0373236,231.0413872,231.3241195,right,1,1,1,0.635756166,650183,1,2023-09-15_20h01.36.078,Tutorial1,2023.1.3,None
196,0.5,1,231.6874117,232.1707127,232.1707127,232.1747874,232.4577967,right,1,1,1,0.686221416,650183,1,2023-09-15_20h01.36.078,Tutorial1,2023.1.3,None
197,0.5,1,232.8707046,233.3540162,233.3540162,233.3589872,233.6411987,left,-1,1,1,0.651499041,650183,1,2023-09-15_20h01.36.078,Tutorial1,2023.1.3,None
198,0.5,1,234.0207543,234.5040773,234.5040773,234.5082828,234.7911732,right,1,1,1,0.728715916,650183,1,2023-09-15_20h01.36.078,Tutorial1,2023.1.3,None
199,0.5,1,235.2465391,235.7374791,235.7374791,235.741602,236.0242534,right,1,1,1,0.477973166,650183,1,2023-09-15_20h01.36.078,Tutorial1,2023.1.3,None